<?xml version="1.0" encoding="UTF-8"?>

<Bundle xmlns="http://hl7.org/fhir">
  <id value="2365"/>
  <meta>
    <versionId value="1"/>
    <lastUpdated value="2020-03-11T21:00:30.312+00:00"/>
    <source value="#abbAWIX5pmLlVEqN"/>
  </meta>
  <type value="message"/>
  <entry>
    <fullUrl value="urn:uuid:1063cd2c-ecb4-49a8-8972-e508ab71917c"/>
    <resource>
      <MessageHeader>
        <text>
          <status value="generated"/><div xmlns="http://www.w3.org/1999/xhtml"><p><b>Generated Narrative with Details</b></p><p><b>event</b>: screen-response (Details: http://sdohcc-hl7t-messageHeader.tmp/sdohcc-screening_task code sdohcc-hl7t-screening-response = 'sdohcc-hl7t-screening-response', stated as 'screen-response')</p><h3>Destinations</h3><table class="grid"><tr><td>-</td><td><b>Endpoint</b></td></tr><tr><td>*</td><td><a href="https://ehr-sandbox.directmdemail.com:8443/fhir/baseR4">https://ehr-sandbox.directmdemail.com:8443/fhir/baseR4</a></td></tr></table><p><b>focus</b>: </p><ul><li><a href="Task?identifier=https%3A%2F%2Fwww.maxmddirect.com%2Ffhir%2Fidentifier%2Fsdc%2Ftask%7Ctask-1583338756">Questionnaire sent out to be completed - 3/4 </a></li><li><a href="#urnuuidce76cc42-ddd6-4265-888b-03db3585c624">Consent. Generated Summary: unknown resource entry</a></li><li><a href="#urnuuid796bf892-9700-4f82-8d8f-887484e451cf">QuestionnaireResponse. Generated Summary: unknown resource entry</a></li></ul></div>
        </text>
        <eventCoding>
          <system value="http://sdohcc-hl7t-messageHeader.tmp/sdohcc-screening_task"/>
          <code value="sdohcc-hl7t-screening-response"/>
          <display value="screen-response"/>
        </eventCoding>
        <destination>
          <endpoint value="https://ehr-sandbox.directmdemail.com:8443/fhir/baseR4"/>
        </destination>
        <focus>
          <reference value="Task?identifier=https%3A%2F%2Fwww.maxmddirect.com%2Ffhir%2Fidentifier%2Fsdc%2Ftask%7Ctask-1583338756"/>
          <display value="Questionnaire sent out to be completed - 3/4 "/>
        </focus>
        <focus>
          <reference value="urn:uuid:ce76cc42-ddd6-4265-888b-03db3585c624"/>
          <display value="Consent"/>
        </focus>
        <focus>
          <reference value="urn:uuid:796bf892-9700-4f82-8d8f-887484e451cf"/>
          <display value="QuestionnaireResponse"/>
        </focus>
      </MessageHeader>
    </resource>
    <request>
      <method value="POST"/>
      <url value="MessageHeader"/>
    </request>
  </entry>
  <entry>
    <fullUrl value="urn:uuid:a8d0f9c8-7757-4bee-a827-87a17dff0cbc"/>
    <resource>
      <Device>
        <text>
          <status value="generated"/><div xmlns="http://www.w3.org/1999/xhtml"><p><b>Generated Narrative with Details</b></p><p><b>identifier</b>: Local-1</p><p><b>status</b>: active</p><h3>DeviceNames</h3><table class="grid"><tr><td>-</td><td><b>Name</b></td></tr><tr><td>*</td><td>MaxMD APP</td></tr></table></div>
        </text>
        <identifier>
          <system value="https://www.maxmddirect.com/fhir/identifier/sdc/app/deviceId"/>
          <value value="Local-1"/>
        </identifier>
        <status value="active"/>
        <deviceName>
          <name value="MaxMD APP"/>
        </deviceName>
      </Device>
    </resource>
    <request>
      <method value="POST"/>
      <url value="Device"/>
      <ifNoneExist value="Device?identifier=identifier=https%3A%2F%2Fwww.maxmddirect.com%2Ffhir%2Fidentifier%2Fsdc%2Fapp%2FdeviceId%7CLocal-1"/>
    </request>
  </entry>
  <entry>
    <fullUrl value="urn:uuid:796bf892-9700-4f82-8d8f-887484e451cf"/>
    <resource>
      <QuestionnaireResponse>
        <text>
          <status value="generated"/><div xmlns="http://www.w3.org/1999/xhtml"><p><b>Generated Narrative with Details</b></p><p><b>identifier</b>: 90</p><p><b>questionnaire</b>: <a href="Questionnaire/17d3c570-28de-4aa3-a135-e35d0932a4ec">Questionnaire/17d3c570-28de-4aa3-a135-e35d0932a4ec</a></p><p><b>status</b>: stopped</p><p><b>subject</b>: <a href="Patient?given=Jeremy&amp;family=Bates&amp;address-postalcode=97006&amp;birthdate=1980-08-01">Patient?given=Jeremy&amp;family=Bates&amp;address-postalcode=97006&amp;birthdate=1980-08-01</a></p><p><b>author</b>: <a href="#urnuuida8d0f9c8-7757-4bee-a827-87a17dff0cbc">Generated Summary: unknown resource entry</a></p><p><b>source</b>: <a href="Patient?given=Jeremy&amp;family=Bates&amp;address-postalcode=97006&amp;birthdate=1980-08-01">Patient?given=Jeremy&amp;family=Bates&amp;address-postalcode=97006&amp;birthdate=1980-08-01</a></p></div>
        </text>
        <identifier>
          <system value="https://www.maxmddirect.com/fhir/identifier/sdc/userFormId"/>
          <value value="90"/>
        </identifier>
        <questionnaire value="Questionnaire/17d3c570-28de-4aa3-a135-e35d0932a4ec"/>
        <status value="stopped"/>
        <subject>
          <reference value="Patient?given=Jeremy&amp;family=Bates&amp;address-postalcode=97006&amp;birthdate=1980-08-01"/>
        </subject>
        <author>
          <reference value="urn:uuid:a8d0f9c8-7757-4bee-a827-87a17dff0cbc"/>
        </author>
        <source>
          <reference value="Patient?given=Jeremy&amp;family=Bates&amp;address-postalcode=97006&amp;birthdate=1980-08-01"/>
        </source>
      </QuestionnaireResponse>
    </resource>
    <request>
      <method value="POST"/>
      <url value="QuestionnaireResponse"/>
    </request>
  </entry>
  <entry>
    <fullUrl value="urn:uuid:ce76cc42-ddd6-4265-888b-03db3585c624"/>
    <resource>
      <Consent>
        <text>
          <status value="generated"/><div xmlns="http://www.w3.org/1999/xhtml"><p><b>Generated Narrative with Details</b></p><p><b>status</b>: rejected</p><p><b>scope</b>: Privacy Consent <span style="background: LightGoldenRodYellow">(Details : {http://terminology.hl7.org/CodeSystem/consentscope code 'patient-privacy' = 'Privacy Consent', given as 'Privacy Consent'})</span></p><p><b>category</b>: information collection <span style="background: LightGoldenRodYellow">(Details : {http://terminology.hl7.org/CodeSystem/v3-ActCode code 'ICOL' = 'information collection', given as 'information collection'})</span></p><p><b>patient</b>: <a href="Patient?given=Jeremy&amp;family=Bates&amp;address-postalcode=97006&amp;birthdate=1980-08-01">Patient?given=Jeremy&amp;family=Bates&amp;address-postalcode=97006&amp;birthdate=1980-08-01</a></p><p><b>dateTime</b>: Mar 4, 2020 4:30:15 PM</p><p><b>source</b>: <a href="#urnuuid796bf892-9700-4f82-8d8f-887484e451cf">Generated Summary: unknown resource entry</a></p></div>
        </text>
        <status value="rejected"/>
        <scope>
          <coding>
            <system value="http://terminology.hl7.org/CodeSystem/consentscope"/>
            <code value="patient-privacy"/>
            <display value="Privacy Consent"/>
          </coding>
        </scope>
        <category>
          <coding>
            <system value="http://terminology.hl7.org/CodeSystem/v3-ActCode"/>
            <code value="ICOL"/>
            <display value="information collection"/>
          </coding>
        </category>
        <patient>
          <reference value="Patient?given=Jeremy&amp;family=Bates&amp;address-postalcode=97006&amp;birthdate=1980-08-01"/>
        </patient>
        <dateTime value="2020-03-04T10:30:15-06:00"/>
        <sourceReference>
          <reference value="urn:uuid:796bf892-9700-4f82-8d8f-887484e451cf"/>
        </sourceReference>
      </Consent>
    </resource>
    <request>
      <method value="POST"/>
      <url value="Consent"/>
    </request>
  </entry>
</Bundle>