{
	"resourceType": "Bundle",
	"id": "2358",
	"meta": {
		"versionId": "1",
		"lastUpdated": "2020-03-11T20:09:49.886+00:00",
		"source": "#SXkxjWU1t13IcfVq"
	},
	"type": "message",
	"entry": [
		{
			"fullUrl": "urn:uuid:id-mh-20200306144007-5e62b52706882",
			"resource": {
				"resourceType": "MessageHeader",
				"text": {
					"status": "generated",
					"div": "<div xmlns=\"http://www.w3.org/1999/xhtml\"><p>Screen Request Messaging including Questionnaire to be completed.</p> </div>"
				},
				"eventCoding": {
					"system": "http://sdohcc-hl7t-messageHeader.tmp/sdohcc-screening_task",
					"code": "sdohcc-hl7t-screening_task-request",
					"display": "screening task request"
				},
				"source": {
					"name": "MaxMD Demo EHR",
					"software": "MaxMD Demo EHR Dashboard",
					"version": "1.0.1",
					"endpoint": "https://ehr-sandbox.directmdemail.com:8443/fhir/baseR4"
				},
				"focus": [
					{
						"reference": "urn:uuid:id-task-20200306144006-5e62b5263239d",
						"display": "Questionnaire sent out to be completed - 3/6"
					},
					{
						"reference": "urn:uuid:id-communicationRequest-20200306144006-5e62b526323e6"
					}
				]
			}
		},
		{
			"fullUrl": "urn:uuid:id-list-20200306144007-5e62b527068d8",
			"resource": {
				"resourceType": "List",
				"status": "current",
				"title": "Food Insecurity (Hunger Vital Sign) Questionnaire Patient List",
				"entry": [
					{
						"item": {
							"reference": "Patient?given=Alice&family=Newman&birthdate=1970-05-01&address-postalcode=97006",
							"type": "Patient",
							"display": "Newman, Alice"
						}
					}
				]
			}
		},
		{
			"fullUrl": "urn:uuid:17d3c570-28de-4aa3-a135-e35d0932a4ec",
			"resource": {
				"resourceType": "Questionnaire",
				"extension": [
					{
						"url": "http://hl7.org/fhir/us/sdc/StructureDefinition/sdc-questionnaire-endpoint",
						"valueString": "https://ehr-sandbox.directmdemail.com:8443/fhir/baseR4"
					},
					{
						"url": "http://hl7.org/fhir/StructureDefinition/variable",
						"valueExpression": {
							"name": "worriedAnsCode",
							"language": "text/fhirpath",
							"expression": "%resource.item.where(linkId='/88122-7').answer.value.code"
						}
					},
					{
						"url": "http://hl7.org/fhir/StructureDefinition/variable",
						"valueExpression": {
							"name": "ranOutAnsCode",
							"language": "text/fhirpath",
							"expression": "%resource.item.where(linkId='/88123-5').answer.value.code"
						}
					},
					{
						"url": "http://hl7.org/fhir/StructureDefinition/variable",
						"valueExpression": {
							"name": "riskCodes",
							"language": "text/fhirpath",
							"expression": "'LA28397-0'.combine('LA6729-3')"
						}
					},
					{
						"url": "http://hl7.org/fhir/StructureDefinition/variable",
						"valueExpression": {
							"name": "riskStatus",
							"language": "text/fhirpath",
							"expression": "%riskCodes contains %worriedAnsCode or %riskCodes contains %ranOutAnsCode"
						}
					},
					{
						"url": "http://hl7.org/fhir/StructureDefinition/variable",
						"valueExpression": {
							"name": "answeredEitherQ",
							"language": "text/fhirpath",
							"expression": "%worriedAnsCode.exists() or %ranOutAnsCode.exists()"
						}
					}
				],
				"identifier": [
					{
						"system": "http://www.maxmddirect.com/hl7/fhir/grv-locali-screenings",
						"value": "local-ehr-65d310b8-6235-4f47-8d45"
					}
				],
				"name": "Food Insecurity (Hunger Vital Sign)",
				"title": "Food Insecurity",
				"status": "active",
				"subjectType": [
					"Patient"
				],
				"date": "2019-12-03T16:09:54.445Z",
				"effectivePeriod": {
					"start": "2019-12-12T11:52:01-05:00",
					"end": "2019-12-22T18:49:14-05:00"
				},
				"item": [
					{
						"extension": [
							{
								"url": "http://hl7.org/fhir/StructureDefinition/questionnaire-itemControl",
								"valueCodeableConcept": {
									"coding": [
										{
											"system": "http://hl7.org/fhir/questionnaire-item-control",
											"code": "drop-down",
											"display": "Drop down"
										}
									],
									"text": "Drop down"
								}
							}
						],
						"linkId": "/88122-7",
						"code": [
							{
								"code": "88122-7",
								"display": "Within the past 12Mo we worried whether our food would run out before we got money to buy more"
							}
						],
						"text": "Within the past 12Mo we worried whether our food would run out before we got money to buy more",
						"type": "choice",
						"required": false,
						"answerOption": [
							{
								"valueCoding": {
									"code": "LA28397-0",
									"display": "Often true"
								}
							},
							{
								"valueCoding": {
									"code": "LA6729-3",
									"display": "Sometimes true"
								}
							},
							{
								"valueCoding": {
									"code": "LA28398-8",
									"display": "Never true"
								}
							},
							{
								"valueCoding": {
									"code": "LA15775-2",
									"display": "Don't know/refused"
								}
							}
						]
					},
					{
						"extension": [
							{
								"url": "http://hl7.org/fhir/StructureDefinition/questionnaire-itemControl",
								"valueCodeableConcept": {
									"coding": [
										{
											"system": "http://hl7.org/fhir/questionnaire-item-control",
											"code": "drop-down",
											"display": "Drop down"
										}
									],
									"text": "Drop down"
								}
							}
						],
						"linkId": "/88123-5",
						"code": [
							{
								"code": "88123-5",
								"display": "Within the past 12Mo the food we bought just didn't last and we didn't have money to get more"
							}
						],
						"text": "Within the past 12Mo the food we bought just didn't last and we didn't have money to get more",
						"type": "choice",
						"required": false,
						"answerOption": [
							{
								"valueCoding": {
									"code": "LA28397-0",
									"display": "Often true"
								}
							},
							{
								"valueCoding": {
									"code": "LA6729-3",
									"display": "Sometimes true"
								}
							},
							{
								"valueCoding": {
									"code": "LA28398-8",
									"display": "Never true"
								}
							},
							{
								"valueCoding": {
									"code": "LA15775-2",
									"display": "Don't know/refused"
								}
							}
						]
					},
					{
						"extension": [
							{
								"url": "http://hl7.org/fhir/StructureDefinition/questionnaire-observationLinkPeriod",
								"valueBoolean": true
							},
							{
								"url": "http://hl7.org/fhir/StructureDefinition/questionnaire-itemControl",
								"valueCodeableConcept": {
									"coding": [
										{
											"system": "http://hl7.org/fhir/questionnaire-item-control",
											"code": "drop-down",
											"display": "Drop down"
										}
									],
									"text": "Drop down"
								}
							},
							{
								"url": "http://hl7.org/fhir/StructureDefinition/variable",
								"valueExpression": {
									"name": "thisItem",
									"language": "text/fhirpath",
									"expression": "%questionnaire.item.where(linkId = '/88124-3')"
								}
							},
							{
								"url": "http://hl7.org/fhir/StructureDefinition/variable",
								"valueExpression": {
									"name": "atRiskCoding",
									"language": "text/fhirpath",
									"expression": "%thisItem.answerOption.valueCoding.where(code='LA19952-3')"
								}
							},
							{
								"url": "http://hl7.org/fhir/StructureDefinition/variable",
								"valueExpression": {
									"name": "noRiskCoding",
									"language": "text/fhirpath",
									"expression": "%thisItem.answerOption.valueCoding.where(code='LA19983-8')"
								}
							},
							{
								"url": "http://hl7.org/fhir/StructureDefinition/questionnaire-calculatedExpression",
								"valueExpression": {
									"description": "risk determination",
									"language": "text/fhirpath",
									"expression": "iif(%answeredEitherQ, iif(%riskStatus, %atRiskCoding, %noRiskCoding), {})"
								}
							}
						],
						"linkId": "/88124-3",
						"code": [
							{
								"code": "88124-3",
								"display": "Food insecurity risk"
							}
						],
						"text": "Food insecurity risk",
						"type": "choice",
						"required": false,
						"readOnly": true,
						"answerOption": [
							{
								"valueCoding": {
									"code": "LA19952-3",
									"display": "At risk"
								}
							},
							{
								"valueCoding": {
									"code": "LA19983-8",
									"display": "No risk"
								}
							}
						],
						"item": [
							{
								"extension": [
									{
										"url": "http://hl7.org/fhir/StructureDefinition/questionnaire-itemControl",
										"valueCodeableConcept": {
											"coding": [
												{
													"system": "http://hl7.org/fhir/questionnaire-item-control",
													"code": "help",
													"display": "Help-Button"
												}
											],
											"text": "Help-Button"
										}
									}
								],
								"linkId": "/88124-3-help",
								"text": "An answer of \"often true\" or \"sometimes true\" to either or both of the Hunger Vital Sign™ questions identifies a patient as at risk for food insecurity (FI).",
								"type": "display"
							}
						]
					}
				]
			},
			"request": {
				"method": "POST",
				"url": "Questionnaire",
				"ifNoneExist": "_count=1&identifier=http%3A%2F%2Fwww.maxmddirect.com%2Fhl7%2Ffhir%2Fgrv-locali-screenings%7Clocal-ehr-65d310b8-6235-4f47-8d45"
			}
		},
		{
			"fullUrl": "urn:uuid:Ehr.Endpoint.Id",
			"resource": {
				"resourceType": "Endpoint",
				"identifier": [
					{
						"system": "https://www.maxmddirect.com/fhir/identifier",
						"value": "MaxMDDemoEhrEndpoint-local"
					}
				],
				"connectionType": {
					"system": "http://terminology.hl7.org/CodeSystem/endpoint-connection-type",
					"code": "hl7-fhir-rest"
				},
				"name": "Payer FHIR Endpoint",
				"payloadType": [
					{
						"coding": [
							{
								"system": "http://terminology.hl7.org/CodeSystem/endpoint-payload-type",
								"code": "urn:hl7-org:sdwg:ccda-structuredBody:2.1"
							}
						]
					},
					{
						"coding": [
							{
								"system": "http://terminology.hl7.org/CodeSystem/endpoint-payload-type",
								"code": "urn:hl7-org:sdwg:ccda-nonXMLBody:2.1"
							}
						]
					}
				],
				"address": "https://ehr-sandbox.directmdemail.com:8443/fhir/baseR4"
			},
			"request": {
				"method": "POST",
				"url": "Endpoint",
				"ifNoneExist": "identifier=https%3A%2F%2Fwww.maxmddirect.com%2Ffhir%2Fidentifier%7CMaxMDDemoEhrEndpoint-local"
			}
		},
		{
			"fullUrl": "urn:uuid:Ehr.Organization.Id",
			"resource": {
				"resourceType": "Organization",
				"identifier": [
					{
						"system": "https://www.maxmddirect.com/fhir/identifier",
						"value": "MaxMDDemoEhrOrganization-local"
					}
				],
				"name": "PMEHR Demo",
				"telecom": [
					{
						"id": "1",
						"system": "phone",
						"value": "800-123-5555",
						"use": "work"
					}
				],
				"address": [
					{
						"id": "1",
						"use": "work",
						"type": "postal",
						"text": "711 Security Blvd, Baltimore, MD 21075",
						"line": [
							"711 Security Blvd"
						],
						"city": "Baltimore",
						"state": "MD",
						"postalCode": "21075",
						"country": "US"
					}
				],
				"endpoint": [
					{
						"reference": "Endpoint/Ehr.Endpoint.Id"
					}
				]
			},
			"request": {
				"method": "POST",
				"url": "Organization",
				"ifNoneExist": "identifier=https%3A%2F%2Fwww.maxmddirect.com%2Ffhir%2Fidentifier%7CMaxMDDemoEhrOrganization-local"
			}
		},
		{
			"fullUrl": "urn:uuid:id-task-20200306144006-5e62b5263239d",
			"resource": {
				"resourceType": "Task",
				"text": {
					"status": "generated",
					"div": "<div xmlns=\"http://www.w3.org/1999/xhtml\"><p>Screen Request Task including Questionnaire to be completed.</p> </div>"
				},
				"identifier": [
					{
						"system": "https://www.maxmddirect.com/fhir/identifier/sdc/task",
						"value": "task-1583527207"
					}
				],
				"status": "requested",
				"intent": "instance-order",
				"code": {
					"coding": [
						{
							"system": "http://grv.hl7t-tasks.tmp/grv-hl7t-tasks",
							"code": "grv-hl7-tasks-20191209143500ET",
							"display": "screen-pts"
						}
					],
					"text": "Screen Patients"
				},
				"description": "Questionnaire sent out to be completed - 3/6",
				"focus": {
					"reference": "urn:uuid:17d3c570-28de-4aa3-a135-e35d0932a4ec",
					"display": "Food Insecurity (Hunger Vital Sign)"
				},
				"for": {
					"reference": "urn:uuid:id-list-20200306144007-5e62b527068d8",
					"display": "Food Insecurity (Hunger Vital Sign) Questionnaire Patient List"
				},
				"executionPeriod": {
					"start": "2020-03-06",
					"end": "2020-03-26"
				},
				"authoredOn": "2020-03-06T14:40:07-06:00",
				"requester": {
					"reference": "urn:uuid:Ehr.Organization.Id",
					"display": "PMEHR Demo"
				}
			}
		},
		{
			"fullUrl": "urn:uuid:id-communicationRequest-20200306144006-5e62b526323e6",
			"resource": {
				"resourceType": "CommunicationRequest",
				"text": {
					"status": "generated",
					"div": "<div xmlns=\"http://www.w3.org/1999/xhtml\"><p>Screen Request Task including Questionnaire to be completed.</p> </div>"
				},
				"identifier": [
					{
						"system": "https://www.maxmddirect.com/fhir/identifier/sdc/communicationRequest",
						"value": "task-1583527207"
					}
				],
				"status": "active",
				"category": [
					{
						"coding": [
							{
								"system": "https://www.maxmddirect.com/fhir/CodeSystem/communication-category",
								"code": "ScreenRequest"
							}
						],
						"text": "ScreenRequest"
					}
				],
				"authoredOn": "2020-03-06T14:40:07-06:00",
				"requester": {
					"reference": "urn:uuid:Ehr.Organization.Id",
					"display": "PMEHR Demo"
				}
			}
		}
	]
}