{
	"resourceType": "Bundle",
	"id": "2365",
	"meta": {
		"versionId": "1",
		"lastUpdated": "2020-03-11T21:00:30.312+00:00",
		"source": "#abbAWIX5pmLlVEqN"
	},
	"type": "message",
	"entry": [
		{
			"fullUrl": "urn:uuid:1063cd2c-ecb4-49a8-8972-e508ab71917c",
			"resource": {
				"resourceType": "MessageHeader",
				"eventCoding": {
					"system": "http://sdohcc-hl7t-messageHeader.tmp/sdohcc-screening_task",
					"code": "sdohcc-hl7t-screening-response",
					"display": "screen-response"
				},
				"destination": [
					{
						"endpoint": "https://ehr-sandbox.directmdemail.com:8443/fhir/baseR4"
					}
				],
				"focus": [
					{
						"reference": "Task?identifier=https%3A%2F%2Fwww.maxmddirect.com%2Ffhir%2Fidentifier%2Fsdc%2Ftask%7Ctask-1583338756",
						"display": "Questionnaire sent out to be completed - 3/4 "
					},
					{
						"reference": "urn:uuid:ce76cc42-ddd6-4265-888b-03db3585c624",
						"display": "Consent"
					},
					{
						"reference": "urn:uuid:796bf892-9700-4f82-8d8f-887484e451cf",
						"display": "QuestionnaireResponse"
					}
				]
			},
			"request": {
				"method": "POST",
				"url": "MessageHeader"
			}
		},
		{
			"fullUrl": "urn:uuid:a8d0f9c8-7757-4bee-a827-87a17dff0cbc",
			"resource": {
				"resourceType": "Device",
				"identifier": [
					{
						"system": "https://www.maxmddirect.com/fhir/identifier/sdc/app/deviceId",
						"value": "Local-1"
					}
				],
				"status": "active",
				"deviceName": [
					{
						"name": "MaxMD APP"
					}
				]
			},
			"request": {
				"method": "POST",
				"url": "Device",
				"ifNoneExist": "Device?identifier=identifier=https%3A%2F%2Fwww.maxmddirect.com%2Ffhir%2Fidentifier%2Fsdc%2Fapp%2FdeviceId%7CLocal-1"
			}
		},
		{
			"fullUrl": "urn:uuid:796bf892-9700-4f82-8d8f-887484e451cf",
			"resource": {
				"resourceType": "QuestionnaireResponse",
				"identifier": {
					"system": "https://www.maxmddirect.com/fhir/identifier/sdc/userFormId",
					"value": "90"
				},
				"questionnaire": "Questionnaire/17d3c570-28de-4aa3-a135-e35d0932a4ec",
				"status": "stopped",
				"subject": {
					"reference": "Patient?given=Jeremy&family=Bates&address-postalcode=97006&birthdate=1980-08-01"
				},
				"author": {
					"reference": "urn:uuid:a8d0f9c8-7757-4bee-a827-87a17dff0cbc"
				},
				"source": {
					"reference": "Patient?given=Jeremy&family=Bates&address-postalcode=97006&birthdate=1980-08-01"
				}
			},
			"request": {
				"method": "POST",
				"url": "QuestionnaireResponse"
			}
		},
		{
			"fullUrl": "urn:uuid:ce76cc42-ddd6-4265-888b-03db3585c624",
			"resource": {
				"resourceType": "Consent",
				"status": "rejected",
				"scope": {
					"coding": [
						{
							"system": "http://terminology.hl7.org/CodeSystem/consentscope",
							"code": "patient-privacy",
							"display": "Privacy Consent"
						}
					]
				},
				"category": [
					{
						"coding": [
							{
								"system": "http://terminology.hl7.org/CodeSystem/v3-ActCode",
								"code": "ICOL",
								"display": "information collection"
							}
						]
					}
				],
				"patient": {
					"reference": "Patient?given=Jeremy&family=Bates&address-postalcode=97006&birthdate=1980-08-01"
				},
				"dateTime": "2020-03-04T10:30:15-06:00",
				"sourceReference": {
					"reference": "urn:uuid:796bf892-9700-4f82-8d8f-887484e451cf"
				}
			},
			"request": {
				"method": "POST",
				"url": "Consent"
			}
		}
	]
}