<?xml version="1.0" encoding="UTF-8"?>

<Bundle xmlns="http://hl7.org/fhir">
  <id value="2358"/>
  <meta>
    <versionId value="1"/>
    <lastUpdated value="2020-03-11T20:09:49.886+00:00"/>
    <source value="#SXkxjWU1t13IcfVq"/>
  </meta>
  <type value="message"/>
  <entry>
    <fullUrl value="urn:uuid:id-mh-20200306144007-5e62b52706882"/>
    <resource>
      <MessageHeader>
        <text>
          <status value="generated"/><div xmlns="http://www.w3.org/1999/xhtml"><p>Screen Request Messaging including Questionnaire to be completed.</p> </div>
        </text>
        <eventCoding>
          <system value="http://sdohcc-hl7t-messageHeader.tmp/sdohcc-screening_task"/>
          <code value="sdohcc-hl7t-screening_task-request"/>
          <display value="screening task request"/>
        </eventCoding>
        <source>
          <name value="MaxMD Demo EHR"/>
          <software value="MaxMD Demo EHR Dashboard"/>
          <version value="1.0.1"/>
          <endpoint value="https://ehr-sandbox.directmdemail.com:8443/fhir/baseR4"/>
        </source>
        <focus>
          <reference value="urn:uuid:id-task-20200306144006-5e62b5263239d"/>
          <display value="Questionnaire sent out to be completed - 3/6"/>
        </focus>
        <focus>
          <reference value="urn:uuid:id-communicationRequest-20200306144006-5e62b526323e6"/>
        </focus>
      </MessageHeader>
    </resource>
  </entry>
  <entry>
    <fullUrl value="urn:uuid:id-list-20200306144007-5e62b527068d8"/>
    <resource>
      <List>
        <text>
          <status value="generated"/><div xmlns="http://www.w3.org/1999/xhtml"><p><b>Generated Narrative with Details</b></p><p><b>status</b>: current</p><p><b>title</b>: Food Insecurity (Hunger Vital Sign) Questionnaire Patient List</p><h3>Entries</h3><table class="grid"><tr><td>-</td><td><b>Item</b></td></tr><tr><td>*</td><td><a href="Patient?given=Alice&amp;family=Newman&amp;birthdate=1970-05-01&amp;address-postalcode=97006">Newman, Alice</a></td></tr></table></div>
        </text>
        <status value="current"/>
        <title value="Food Insecurity (Hunger Vital Sign) Questionnaire Patient List"/>
        <entry>
          <item>
            <reference value="Patient?given=Alice&amp;family=Newman&amp;birthdate=1970-05-01&amp;address-postalcode=97006"/>
            <type value="Patient"/>
            <display value="Newman, Alice"/>
          </item>
        </entry>
      </List>
    </resource>
  </entry>
  <entry>
    <fullUrl value="urn:uuid:17d3c570-28de-4aa3-a135-e35d0932a4ec"/>
    <resource>
      <Questionnaire>
        <text>
          <status value="generated"/><div xmlns="http://www.w3.org/1999/xhtml"><p><b>Generated Narrative with Details</b></p><p><b>identifier</b>: local-ehr-65d310b8-6235-4f47-8d45</p><p><b>name</b>: Food Insecurity (Hunger Vital Sign)</p><p><b>title</b>: Food Insecurity</p><p><b>status</b>: active</p><p><b>subjectType</b>: Patient</p><p><b>date</b>: Dec 3, 2019 4:09:54 PM</p><p><b>effectivePeriod</b>: Dec 12, 2019 4:52:01 PM --&gt; Dec 22, 2019 11:49:14 PM</p><blockquote><p><b>item</b></p><p><b>linkId</b>: /88122-7</p><p><b>code</b>: Within the past 12Mo we worried whether our food would run out before we got money to buy more (Details: [not stated] code 88122-7 = '88122-7', stated as 'Within the past 12Mo we worried whether our food would run out before we got money to buy more')</p><p><b>text</b>: Within the past 12Mo we worried whether our food would run out before we got money to buy more</p><p><b>type</b>: choice</p><p><b>required</b>: false</p><blockquote><p><b>answerOption</b></p><p><b>value</b>: Often true (Details: [not stated] code LA28397-0 = 'LA28397-0', stated as 'Often true')</p></blockquote><blockquote><p><b>answerOption</b></p><p><b>value</b>: Sometimes true (Details: [not stated] code LA6729-3 = 'LA6729-3', stated as 'Sometimes true')</p></blockquote><blockquote><p><b>answerOption</b></p><p><b>value</b>: Never true (Details: [not stated] code LA28398-8 = 'LA28398-8', stated as 'Never true')</p></blockquote><blockquote><p><b>answerOption</b></p><p><b>value</b>: Don't know/refused (Details: [not stated] code LA15775-2 = 'LA15775-2', stated as 'Don't know/refused')</p></blockquote></blockquote><blockquote><p><b>item</b></p><p><b>linkId</b>: /88123-5</p><p><b>code</b>: Within the past 12Mo the food we bought just didn't last and we didn't have money to get more (Details: [not stated] code 88123-5 = '88123-5', stated as 'Within the past 12Mo the food we bought just didn't last and we didn't have money to get more')</p><p><b>text</b>: Within the past 12Mo the food we bought just didn't last and we didn't have money to get more</p><p><b>type</b>: choice</p><p><b>required</b>: false</p><blockquote><p><b>answerOption</b></p><p><b>value</b>: Often true (Details: [not stated] code LA28397-0 = 'LA28397-0', stated as 'Often true')</p></blockquote><blockquote><p><b>answerOption</b></p><p><b>value</b>: Sometimes true (Details: [not stated] code LA6729-3 = 'LA6729-3', stated as 'Sometimes true')</p></blockquote><blockquote><p><b>answerOption</b></p><p><b>value</b>: Never true (Details: [not stated] code LA28398-8 = 'LA28398-8', stated as 'Never true')</p></blockquote><blockquote><p><b>answerOption</b></p><p><b>value</b>: Don't know/refused (Details: [not stated] code LA15775-2 = 'LA15775-2', stated as 'Don't know/refused')</p></blockquote></blockquote><blockquote><p><b>item</b></p></blockquote><p><b style="color: maroon">Exception generating Narrative: unknown extension http://hl7.org/fhir/StructureDefinition/questionnaire-observationLinkPeriod</b></p></div>
        </text>
        <extension url="http://hl7.org/fhir/us/sdc/StructureDefinition/sdc-questionnaire-endpoint">
          <valueString value="https://ehr-sandbox.directmdemail.com:8443/fhir/baseR4"/>
        </extension>
        <extension url="http://hl7.org/fhir/StructureDefinition/variable">
          <valueExpression>
            <name value="worriedAnsCode"/>
            <language value="text/fhirpath"/>
            <expression value="%resource.item.where(linkId=&#39;/88122-7&#39;).answer.value.code"/>
          </valueExpression>
        </extension>
        <extension url="http://hl7.org/fhir/StructureDefinition/variable">
          <valueExpression>
            <name value="ranOutAnsCode"/>
            <language value="text/fhirpath"/>
            <expression value="%resource.item.where(linkId=&#39;/88123-5&#39;).answer.value.code"/>
          </valueExpression>
        </extension>
        <extension url="http://hl7.org/fhir/StructureDefinition/variable">
          <valueExpression>
            <name value="riskCodes"/>
            <language value="text/fhirpath"/>
            <expression value="&#39;LA28397-0&#39;.combine(&#39;LA6729-3&#39;)"/>
          </valueExpression>
        </extension>
        <extension url="http://hl7.org/fhir/StructureDefinition/variable">
          <valueExpression>
            <name value="riskStatus"/>
            <language value="text/fhirpath"/>
            <expression value="%riskCodes contains %worriedAnsCode or %riskCodes contains %ranOutAnsCode"/>
          </valueExpression>
        </extension>
        <extension url="http://hl7.org/fhir/StructureDefinition/variable">
          <valueExpression>
            <name value="answeredEitherQ"/>
            <language value="text/fhirpath"/>
            <expression value="%worriedAnsCode.exists() or %ranOutAnsCode.exists()"/>
          </valueExpression>
        </extension>
        <identifier>
          <system value="http://www.maxmddirect.com/hl7/fhir/grv-locali-screenings"/>
          <value value="local-ehr-65d310b8-6235-4f47-8d45"/>
        </identifier>
        <name value="Food Insecurity (Hunger Vital Sign)"/>
        <title value="Food Insecurity"/>
        <status value="active"/>
        <subjectType value="Patient"/>
        <date value="2019-12-03T16:09:54.445Z"/>
        <effectivePeriod>
          <start value="2019-12-12T11:52:01-05:00"/>
          <end value="2019-12-22T18:49:14-05:00"/>
        </effectivePeriod>
        <item>
          <extension url="http://hl7.org/fhir/StructureDefinition/questionnaire-itemControl">
            <valueCodeableConcept>
              <coding>
                <system value="http://hl7.org/fhir/questionnaire-item-control"/>
                <code value="drop-down"/>
                <display value="Drop down"/>
              </coding>
              <text value="Drop down"/>
            </valueCodeableConcept>
          </extension>
          <linkId value="/88122-7"/>
          <code>
            <code value="88122-7"/>
            <display value="Within the past 12Mo we worried whether our food would run out before we got money to buy more"/>
          </code>
          <text value="Within the past 12Mo we worried whether our food would run out before we got money to buy more"/>
          <type value="choice"/>
          <required value="false"/>
          <answerOption>
            <valueCoding>
              <code value="LA28397-0"/>
              <display value="Often true"/>
            </valueCoding>
          </answerOption>
          <answerOption>
            <valueCoding>
              <code value="LA6729-3"/>
              <display value="Sometimes true"/>
            </valueCoding>
          </answerOption>
          <answerOption>
            <valueCoding>
              <code value="LA28398-8"/>
              <display value="Never true"/>
            </valueCoding>
          </answerOption>
          <answerOption>
            <valueCoding>
              <code value="LA15775-2"/>
              <display value="Don&#39;t know/refused"/>
            </valueCoding>
          </answerOption>
        </item>
        <item>
          <extension url="http://hl7.org/fhir/StructureDefinition/questionnaire-itemControl">
            <valueCodeableConcept>
              <coding>
                <system value="http://hl7.org/fhir/questionnaire-item-control"/>
                <code value="drop-down"/>
                <display value="Drop down"/>
              </coding>
              <text value="Drop down"/>
            </valueCodeableConcept>
          </extension>
          <linkId value="/88123-5"/>
          <code>
            <code value="88123-5"/>
            <display value="Within the past 12Mo the food we bought just didn&#39;t last and we didn&#39;t have money to get more"/>
          </code>
          <text value="Within the past 12Mo the food we bought just didn&#39;t last and we didn&#39;t have money to get more"/>
          <type value="choice"/>
          <required value="false"/>
          <answerOption>
            <valueCoding>
              <code value="LA28397-0"/>
              <display value="Often true"/>
            </valueCoding>
          </answerOption>
          <answerOption>
            <valueCoding>
              <code value="LA6729-3"/>
              <display value="Sometimes true"/>
            </valueCoding>
          </answerOption>
          <answerOption>
            <valueCoding>
              <code value="LA28398-8"/>
              <display value="Never true"/>
            </valueCoding>
          </answerOption>
          <answerOption>
            <valueCoding>
              <code value="LA15775-2"/>
              <display value="Don&#39;t know/refused"/>
            </valueCoding>
          </answerOption>
        </item>
        <item>
          <extension url="http://hl7.org/fhir/StructureDefinition/questionnaire-observationLinkPeriod">
            <valueBoolean value="true"/>
          </extension>
          <extension url="http://hl7.org/fhir/StructureDefinition/questionnaire-itemControl">
            <valueCodeableConcept>
              <coding>
                <system value="http://hl7.org/fhir/questionnaire-item-control"/>
                <code value="drop-down"/>
                <display value="Drop down"/>
              </coding>
              <text value="Drop down"/>
            </valueCodeableConcept>
          </extension>
          <extension url="http://hl7.org/fhir/StructureDefinition/variable">
            <valueExpression>
              <name value="thisItem"/>
              <language value="text/fhirpath"/>
              <expression value="%questionnaire.item.where(linkId = &#39;/88124-3&#39;)"/>
            </valueExpression>
          </extension>
          <extension url="http://hl7.org/fhir/StructureDefinition/variable">
            <valueExpression>
              <name value="atRiskCoding"/>
              <language value="text/fhirpath"/>
              <expression value="%thisItem.answerOption.valueCoding.where(code=&#39;LA19952-3&#39;)"/>
            </valueExpression>
          </extension>
          <extension url="http://hl7.org/fhir/StructureDefinition/variable">
            <valueExpression>
              <name value="noRiskCoding"/>
              <language value="text/fhirpath"/>
              <expression value="%thisItem.answerOption.valueCoding.where(code=&#39;LA19983-8&#39;)"/>
            </valueExpression>
          </extension>
          <extension url="http://hl7.org/fhir/StructureDefinition/questionnaire-calculatedExpression">
            <valueExpression>
              <description value="risk determination"/>
              <language value="text/fhirpath"/>
              <expression value="iif(%answeredEitherQ, iif(%riskStatus, %atRiskCoding, %noRiskCoding), {})"/>
            </valueExpression>
          </extension>
          <linkId value="/88124-3"/>
          <code>
            <code value="88124-3"/>
            <display value="Food insecurity risk"/>
          </code>
          <text value="Food insecurity risk"/>
          <type value="choice"/>
          <required value="false"/>
          <readOnly value="true"/>
          <answerOption>
            <valueCoding>
              <code value="LA19952-3"/>
              <display value="At risk"/>
            </valueCoding>
          </answerOption>
          <answerOption>
            <valueCoding>
              <code value="LA19983-8"/>
              <display value="No risk"/>
            </valueCoding>
          </answerOption>
          <item>
            <extension url="http://hl7.org/fhir/StructureDefinition/questionnaire-itemControl">
              <valueCodeableConcept>
                <coding>
                  <system value="http://hl7.org/fhir/questionnaire-item-control"/>
                  <code value="help"/>
                  <display value="Help-Button"/>
                </coding>
                <text value="Help-Button"/>
              </valueCodeableConcept>
            </extension>
            <linkId value="/88124-3-help"/>
            <text value="An answer of &quot;often true&quot; or &quot;sometimes true&quot; to either or both of the Hunger Vital Sign&#x2122; questions identifies a patient as at risk for food insecurity (FI)."/>
            <type value="display"/>
          </item>
        </item>
      </Questionnaire>
    </resource>
    <request>
      <method value="POST"/>
      <url value="Questionnaire"/>
      <ifNoneExist value="_count=1&amp;identifier=http%3A%2F%2Fwww.maxmddirect.com%2Fhl7%2Ffhir%2Fgrv-locali-screenings%7Clocal-ehr-65d310b8-6235-4f47-8d45"/>
    </request>
  </entry>
  <entry>
    <fullUrl value="urn:uuid:Ehr.Endpoint.Id"/>
    <resource>
      <Endpoint>
        <text>
          <status value="generated"/><div xmlns="http://www.w3.org/1999/xhtml"><p><b>Generated Narrative with Details</b></p><p><b>identifier</b>: MaxMDDemoEhrEndpoint-local</p><p><b>connectionType</b>: HL7 FHIR (Details: http://terminology.hl7.org/CodeSystem/endpoint-connection-type code hl7-fhir-rest = 'HL7 FHIR', stated as 'null')</p><p><b>name</b>: Payer FHIR Endpoint</p><p><b>payloadType</b>: urn:hl7-org:sdwg:ccda-structuredBody:2.1 <span style="background: LightGoldenRodYellow">(Details : {http://terminology.hl7.org/CodeSystem/endpoint-payload-type code 'urn:hl7-org:sdwg:ccda-structuredBody:2.1' = 'urn:hl7-org:sdwg:ccda-structuredBody:2.1)</span>, urn:hl7-org:sdwg:ccda-nonXMLBody:2.1 <span style="background: LightGoldenRodYellow">(Details : {http://terminology.hl7.org/CodeSystem/endpoint-payload-type code 'urn:hl7-org:sdwg:ccda-nonXMLBody:2.1' = 'urn:hl7-org:sdwg:ccda-nonXMLBody:2.1)</span></p><p><b>address</b>: <a href="https://ehr-sandbox.directmdemail.com:8443/fhir/baseR4">https://ehr-sandbox.directmdemail.com:8443/fhir/baseR4</a></p></div>
        </text>
        <identifier>
          <system value="https://www.maxmddirect.com/fhir/identifier"/>
          <value value="MaxMDDemoEhrEndpoint-local"/>
        </identifier>
        <connectionType>
          <system value="http://terminology.hl7.org/CodeSystem/endpoint-connection-type"/>
          <code value="hl7-fhir-rest"/>
        </connectionType>
        <name value="Payer FHIR Endpoint"/>
        <payloadType>
          <coding>
            <system value="http://terminology.hl7.org/CodeSystem/endpoint-payload-type"/>
            <code value="urn:hl7-org:sdwg:ccda-structuredBody:2.1"/>
          </coding>
        </payloadType>
        <payloadType>
          <coding>
            <system value="http://terminology.hl7.org/CodeSystem/endpoint-payload-type"/>
            <code value="urn:hl7-org:sdwg:ccda-nonXMLBody:2.1"/>
          </coding>
        </payloadType>
        <address value="https://ehr-sandbox.directmdemail.com:8443/fhir/baseR4"/>
      </Endpoint>
    </resource>
    <request>
      <method value="POST"/>
      <url value="Endpoint"/>
      <ifNoneExist value="identifier=https%3A%2F%2Fwww.maxmddirect.com%2Ffhir%2Fidentifier%7CMaxMDDemoEhrEndpoint-local"/>
    </request>
  </entry>
  <entry>
    <fullUrl value="urn:uuid:Ehr.Organization.Id"/>
    <resource>
      <Organization>
        <text>
          <status value="generated"/><div xmlns="http://www.w3.org/1999/xhtml"><p><b>Generated Narrative with Details</b></p><p><b>identifier</b>: MaxMDDemoEhrOrganization-local</p><p><b>name</b>: PMEHR Demo</p><p><b>telecom</b>: ph: 800-123-5555(WORK)</p><p><b>address</b>: 711 Security Blvd, Baltimore, MD 21075(WORK)</p><p><b>endpoint</b>: <a href="Endpoint/Ehr.Endpoint.Id">Endpoint/Ehr.Endpoint.Id</a></p></div>
        </text>
        <identifier>
          <system value="https://www.maxmddirect.com/fhir/identifier"/>
          <value value="MaxMDDemoEhrOrganization-local"/>
        </identifier>
        <name value="PMEHR Demo"/>
        <telecom id="1">
          <system value="phone"/>
          <value value="800-123-5555"/>
          <use value="work"/>
        </telecom>
        <address id="1">
          <use value="work"/>
          <type value="postal"/>
          <text value="711 Security Blvd, Baltimore, MD 21075"/>
          <line value="711 Security Blvd"/>
          <city value="Baltimore"/>
          <state value="MD"/>
          <postalCode value="21075"/>
          <country value="US"/>
        </address>
        <endpoint>
          <reference value="Endpoint/Ehr.Endpoint.Id"/>
        </endpoint>
      </Organization>
    </resource>
    <request>
      <method value="POST"/>
      <url value="Organization"/>
      <ifNoneExist value="identifier=https%3A%2F%2Fwww.maxmddirect.com%2Ffhir%2Fidentifier%7CMaxMDDemoEhrOrganization-local"/>
    </request>
  </entry>
  <entry>
    <fullUrl value="urn:uuid:id-task-20200306144006-5e62b5263239d"/>
    <resource>
      <Task>
        <text>
          <status value="generated"/><div xmlns="http://www.w3.org/1999/xhtml"><p>Screen Request Task including Questionnaire to be completed.</p> </div>
        </text>
        <identifier>
          <system value="https://www.maxmddirect.com/fhir/identifier/sdc/task"/>
          <value value="task-1583527207"/>
        </identifier>
        <status value="requested"/>
        <intent value="instance-order"/>
        <code>
          <coding>
            <system value="http://grv.hl7t-tasks.tmp/grv-hl7t-tasks"/>
            <code value="grv-hl7-tasks-20191209143500ET"/>
            <display value="screen-pts"/>
          </coding>
          <text value="Screen Patients"/>
        </code>
        <description value="Questionnaire sent out to be completed - 3/6"/>
        <focus>
          <reference value="urn:uuid:17d3c570-28de-4aa3-a135-e35d0932a4ec"/>
          <display value="Food Insecurity (Hunger Vital Sign)"/>
        </focus>
        <for>
          <reference value="urn:uuid:id-list-20200306144007-5e62b527068d8"/>
          <display value="Food Insecurity (Hunger Vital Sign) Questionnaire Patient List"/>
        </for>
        <executionPeriod>
          <start value="2020-03-06"/>
          <end value="2020-03-26"/>
        </executionPeriod>
        <authoredOn value="2020-03-06T14:40:07-06:00"/>
        <requester>
          <reference value="urn:uuid:Ehr.Organization.Id"/>
          <display value="PMEHR Demo"/>
        </requester>
      </Task>
    </resource>
  </entry>
  <entry>
    <fullUrl value="urn:uuid:id-communicationRequest-20200306144006-5e62b526323e6"/>
    <resource>
      <CommunicationRequest>
        <text>
          <status value="generated"/><div xmlns="http://www.w3.org/1999/xhtml"><p>Screen Request Task including Questionnaire to be completed.</p> </div>
        </text>
        <identifier>
          <system value="https://www.maxmddirect.com/fhir/identifier/sdc/communicationRequest"/>
          <value value="task-1583527207"/>
        </identifier>
        <status value="active"/>
        <category>
          <coding>
            <system value="https://www.maxmddirect.com/fhir/CodeSystem/communication-category"/>
            <code value="ScreenRequest"/>
          </coding>
          <text value="ScreenRequest"/>
        </category>
        <authoredOn value="2020-03-06T14:40:07-06:00"/>
        <requester>
          <reference value="urn:uuid:Ehr.Organization.Id"/>
          <display value="PMEHR Demo"/>
        </requester>
      </CommunicationRequest>
    </resource>
  </entry>
</Bundle>